Folder: Fischetta_4/Maddalena

Note: Maddalena/490.txt
Wavelength (nm)	Reflectance
300	0.6112681
302	0.587884
304	0.5617209
306	0.5326899
308	0.5010935
310	0.4674612
312	0.4327483
314	0.3980924
316	0.3650808
318	0.3356146
320	0.3115883
322	0.2945865
324	0.2857361
326	0.2853406
328	0.2928626
330	0.3072106
332	0.3268854
334	0.3500761
336	0.3752491
338	0.4009823
340	0.4262224
342	0.4504385
344	0.4730283
346	0.4938519
348	0.5128198
350	0.52994
352	0.5452386
354	0.5590854
356	0.5713178
358	0.5817135
360	0.5894875
362	0.5939996
364	0.5945971
366	0.5908204
368	0.5827148
370	0.5709311
372	0.5558694
374	0.5378898
376	0.5174677
378	0.4952336
380	0.4718893
382	0.4475455
384	0.422509
386	0.3970071
388	0.3712739
390	0.3456515
392	0.320636
394	0.2964894
396	0.2736382
398	0.2524988
400	0.2334338
402	0.2167761
404	0.2028142
406	0.1916761
408	0.1834353
410	0.178253
412	0.1760239
414	0.1765996
416	0.1797531
418	0.1852503
420	0.1927409
422	0.2019121
424	0.2125001
426	0.2239361
428	0.2359576
430	0.2484452
432	0.2611507
434	0.2738008
436	0.286239
438	0.2985321
440	0.3103834
442	0.321467
444	0.3320121
446	0.3419554
448	0.3510693
450	0.3595039
452	0.3672864
454	0.3742257
456	0.3803669
458	0.385813
460	0.3905152
462	0.394472
464	0.3977001
466	0.400223
468	0.4021711
470	0.4034085
472	0.4039582
474	0.4039076
476	0.4032832
478	0.4019996
480	0.400101
482	0.3976386
484	0.394594
486	0.3910451
488	0.3869529
490	0.3823442
492	0.3772159
494	0.371633
496	0.3655641
498	0.3591087
500	0.3522066
502	0.3448985
504	0.3371856
506	0.3292044
508	0.3208525
510	0.3120646
512	0.3029599
514	0.2936896
516	0.2842324
518	0.2746283
520	0.2648692
522	0.254931
524	0.2449131
526	0.2348879
528	0.2249021
530	0.2149708
532	0.2052007
534	0.1955735
536	0.1861801
538	0.1770159
540	0.1681134
542	0.159565
544	0.1513971
546	0.1436862
548	0.1364279
550	0.1296238
552	0.1233403
554	0.1176541
556	0.1126284
558	0.108188
560	0.1043431
562	0.1011248
564	0.0985454
566	0.0966034
568	0.0952815
570	0.0945925
572	0.094523
574	0.0950465
576	0.0961525
578	0.097805
580	0.0999722
582	0.1025742
584	0.1056234
586	0.1091411
588	0.1130938
590	0.1174077
592	0.1220764
594	0.127047
596	0.1322794
598	0.1377515
600	0.1434203
602	0.149192
604	0.1550898
606	0.1611244
608	0.1672707
610	0.1734771
612	0.1796504
614	0.1858372
616	0.1920811
618	0.1983261
620	0.2045206
622	0.2106104
624	0.2166368
626	0.2225578
628	0.2283767
630	0.2340901
632	0.2396904
634	0.2451648
636	0.2505312
638	0.2557828
640	0.2608774
642	0.2657605
644	0.2704671
646	0.2750357
648	0.279483
650	0.2837683
652	0.2878507
654	0.2917919
656	0.2955759
658	0.299219
660	0.3026864
662	0.305995
664	0.3091377
666	0.3121
668	0.3148928
670	0.3175272
672	0.3200031
674	0.3223214
676	0.3244943
678	0.3265183
680	0.3284074
682	0.33017
684	0.3317905
686	0.3332551
688	0.3345677
690	0.335735
692	0.3367597
694	0.3376437
696	0.3383897
698	0.3389949
7

Note: Maddalena/520.txt
Wavelength (nm)	Reflectance
300	0.5744855
302	0.5851456
304	0.5928072
306	0.5972017
308	0.5983626
310	0.5963558
312	0.5912101
314	0.5829054
316	0.5713943
318	0.5567046
320	0.5388257
322	0.5178118
324	0.4938518
326	0.4673378
328	0.4388103
330	0.4090295
332	0.3791554
334	0.3504979
336	0.3248216
338	0.3036092
340	0.2882945
342	0.2801006
344	0.2794694
346	0.2864413
348	0.3003874
350	0.3202394
352	0.3445892
354	0.3724284
356	0.4022266
358	0.4325887
360	0.4616532
362	0.4879688
364	0.5102653
366	0.5277109
368	0.54025
370	0.548585
372	0.5533185
374	0.554833
376	0.5535788
378	0.5501578
380	0.5452213
382	0.5387829
384	0.5310272
386	0.5219829
388	0.5116378
390	0.5000176
392	0.4872588
394	0.4732941
396	0.4581644
398	0.4419247
400	0.4246259
402	0.4063751
404	0.3872804
406	0.3674212
408	0.3469447
410	0.3261027
412	0.3051066
414	0.2842755
416	0.2639645
418	0.2444887
420	0.226046
422	0.2089673
424	0.1936147
426	0.180292
428	0.1691444
430	0.1603272
432	0.1539587
434	0.1500471
436	0.1485877
438	0.1494972
440	0.1526229
442	0.1576368
444	0.1644453
446	0.1728259
448	0.1823593
450	0.1929402
452	0.2044016
454	0.2162739
456	0.2283962
458	0.2406836
460	0.2529192
462	0.2648881
464	0.2765247
466	0.2877799
468	0.2988526
470	0.3093401
472	0.3190401
474	0.3282725
476	0.3370909
478	0.3450197
480	0.3521204
482	0.3586639
484	0.3645557
486	0.3697718
488	0.3743089
490	0.3781788
492	0.3813908
494	0.3840229
496	0.3860213
498	0.3874434
500	0.3882641
502	0.388528
504	0.3882153
506	0.387364
508	0.3859728
510	0.3840873
512	0.3816679
514	0.3787543
516	0.3753585
518	0.3715463
520	0.3672882
522	0.3625463
524	0.3573594
526	0.3517758
528	0.3458265
530	0.339486
532	0.3328048
534	0.3257729
536	0.3184529
538	0.3108157
540	0.3028736
542	0.2946965
544	0.2862824
546	0.2776966
548	0.2689267
550	0.2599527
552	0.2508302
554	0.2416627
556	0.2325831
558	0.223485
560	0.2143399
562	0.2052268
564	0.1962215
566	0.1874051
568	0.1787565
570	0.1702982
572	0.1620767
574	0.1541393
576	0.1465536
578	0.1393223
580	0.1324941
582	0.1261463
584	0.1202322
586	0.1147682
588	0.1097829
590	0.1053072
592	0.101364
594	0.0979618
596	0.0951074
598	0.0928185
600	0.0910824
602	0.0898866
604	0.0892319
606	0.0891085
608	0.0895106
610	0.090418
612	0.0917796
614	0.0936017
616	0.0959054
618	0.0986452
620	0.1017768
622	0.1052459
624	0.1090639
626	0.1131789
628	0.1175723
630	0.1222235
632	0.1271071
634	0.1321928
636	0.1374832
638	0.1429559
640	0.1485481
642	0.1541725
644	0.1598556
646	0.1656245
648	0.1714793
650	0.1773552
652	0.1831731
654	0.1889981
656	0.1948013
658	0.2005834
660	0.2063007
662	0.2119858
664	0.2175925
666	0.2230821
668	0.2284538
670	0.2337237
672	0.2388825
674	0.2439243
676	0.2488522
678	0.2536585
680	0.2583517
682	0.2629623
684	0.2674404
686	0.2717555
688	0.2759077
690	0.2799133
692	0.283772
694	0.2874836
696	0.2910481

Note: README.md
# Fischetta_4
Ecco i file dell'analisi dati di iacovacci
Per far funzionare il tutto, dovete scaricare tutti i file della cartella "updated". 
Servono i moduli seguenti

* mpl_toolkits
* numpy 
* matplotlib
* pandas
* scipy

File: Sio2_teorico_418.txt
Wavelength (nm)	Reflectance
300	0.575098
306	0.589012
312	0.5873191
318	0.5692035
324	0.5341344
330	0.4829682
336	0.4200254
342	0.355725
348	0.3071032
354	0.2931884
360	0.3215543
366	0.3695309
372	0.4088232
378	0.4353628
384	0.4542199
390	0.4670686
396	0.473771
402	0.4739672
408	0.4674994
414	0.454675
420	0.4359923
426	0.4117167
432	0.3824945
438	0.3491307
444	0.3126312
450	0.2745803
456	0.2366205
462	0.2013439
468	0.1702535
474	0.1452346
480	0.1278451
486	0.1187929
492	0.1178065
498	0.1240717
504	0.1362061
510	0.1526922
516	0.1722165
522	0.1932555
528	0.2147264
534	0.2355055
540	0.2552157
546	0.2733944
552	0.2899046
558	0.3041773
564	0.3166869
570	0.3270023
576	0.3354776
582	0.3419521
588	0.3466076
594	0.3496272
600	0.3510116
606	0.3508218
612	0.3491533
618	0.346162
624	0.3418255
630	0.3363557
636	0.3298093
642	0.3221877
648	0.3135639
654	0.3041622
660	0.2941073
666	0.2832053
672	0.2718076
678	0.2599552
684	0.2477309
690	0.2352843
696	0.2226491
702	0.2099136
708	0.1972366
714	0.1846752
720	0.1724934
726	0.160615
732	0.1492096
738	0.1384427
744	0.128254
750	0.1187652
756	0.1101148
762	0.1024025
768	0.0956225
774	0.0897266
780	0.0847078
786	0.0806982
792	0.0776513
798	0.0755463
804	0.0743145
810	0.0740464
816	0.0746878
822	0.0760513
828	0.0781498
834	0.0809303
840	0.0843194
846	0.0883136
852	0.0928118
858	0.0977528
864	0.1030423
870	0.1086373
876	0.1145545
882	0.1206719
888	0.1269674
894	0.1334582
900	0.1400357
906	0.1467183
912	0.153397
918	0.1600228
924	0.1666417
930	0.1732098
936	0.1796344
942	0.1859512
948	0.1921438
954	0.1982341
960	0.2042439
966	0.2100458
972	0.2156808
978	0.2211422
984	0.2264532
990	0.2315931
996	0.2365049
1002	0.2412425
1008	0.2458191
1014	0.2502076
1020	0.2544083
1026	0.2584549
1032	0.262303
1038	0.2659459
1044	0.2694077
1050	0.2726908
1056	0.2756781
1062	0.2786615
1068	0.2814757
1074	0.2841386
1080	0.2866442
1086	0.2889708
1092	0.29115
1098	0.293174
1104	0.2950556
1110	0.2967937
1116	0.2983909
1122	0.2998509
1128	0.3011771
1134	0.3023884
1140	0.3034691
1146	0.3044261
1152	0.3052636
1158	0.3059845
1164	0.3065922
1170	0.3070898
1176	0.3074821
1182	0.3077779
1188	0.3079679
1194	0.3080616
1200	0.3080655
1206	0.3079808
1212	0.3078018
1218	0.3075438
1224	0.3072004
1230	0.3067705
1236	0.3062742
1242	0.3056977
1248	0.3050438
1254	0.304325
1260	0.3035365
1266	0.3026806
1272	0.3017594
1278	0.3007739
1284	0.299727
1290	0.2986321
1296	0.2974811
1302	0.2962677
1308	0.2950102
1314	0.2937013
1320	0.292343
1326	0.2909386
1332	0.2894956
1338	0.2879992
1344	0.2864684
1350	0.2848973
1356	0.2832711
1362	0.2816176
1368	0.2799365
1374	0.2782206
1380	0.2764714
1386	0.2746903
1392	0.2728826
1398	0.2710489
1404	0.2691806
1410	0.267296
1416	0.2653717
1422	0.2634212
1428	0.2614675
1434	0.2594925
1440	0.2574973
1446	0.2554832
1452	0.2534513
1458	0.2514046
1464	0.2493475
1470	0.2472708
1476	0.2451807
1482	0.2430833
1488	0.2409576
1494	0.238834
1500	0.2367113
1506	0.2345701
1512	0.2324318
1518	0.2302887
1524	0.2281374
1530	0.2259865
1536	0.223816
1542	0.221643
1548	0.2194849
1554	0.2173244
1560	0.2151591
1566	0.2130056
1572	0.21085
1578	0.2086934
1584	0.2065347
1590	0.2043646
1596	0.2022239
1602	0.2000882
1608	0.1979579
1614	0.1958335
1620	0.1937157
1626	0.1916051
1632	0.1894971
1638	0.1873929
1644	0.1853068
1650	0.1832311
1656	0.1811748
1662	0.1791231
1668	0.1770855
1674	0.1750504
1680	0.1730183
1686	0.17102
1692	0.1690286
1698	0.1670583
1704	0.1650931
1710	0.1631296
1716	0.1612017
1722	0.1592892
1728	0.1573919
1734	0.1555102
1740	0.1536445
1746	0.1517841
1752	0.1499443
1758	0.1481288
1764	0.1463305
1770	0.1445496
1776	0.1427855
1782	0.1410343
1788	0.1393077
1794	0.137606
1800	0.1359184